Tempo(s)	Deformação(mm)	Força(N)
 0.016667 	0.00010662 	665.83 
0.51667 	0.00021324 	499.37 
1.0167 	0.00021324 	832.28 
1.5167 	0.00021324 	998.74 
2.0167 	0.00042647 	1331.7 
2.5167 	0.00053309 	1664.6 
3.0167 	0.00063971 	2163.9 
3.5167 	0.00074633 	2496.9 
4.0167 	0.0010662 	2996.2 
4.5167 	0.0012794 	3662.0 
5.0167 	0.0014927 	4161.4 
5.5167 	0.0015993 	4660.8 
5.9833 	0.0019191 	5326.6 
6.4167 	0.0021324 	5992.4 
6.8833 	0.0023456 	6658.3 
7.3833 	0.0025588 	7324.1 
7.8833 	0.0027721 	7823.5 
8.3667 	0.0029853 	8489.3 
8.8667 	0.0031985 	8822.2 
9.3667 	0.0033052 	9488.0 
9.8667 	0.0035184 	9987.4 
10.367 	0.0037316 	10487 
10.867 	0.0038383 	10986 
11.350 	0.0040515 	11652 
11.850 	0.0041581 	12151 
12.350 	0.0042647 	12318 
12.850 	0.0043713 	12817 
13.350 	0.0044780 	13150 
13.850 	0.0044780 	13317 
14.350 	0.0045846 	13317 
14.850 	0.0045846 	13317 
15.350 	0.0045846 	13649 
15.850 	0.0045846 	13649 
16.350 	0.0046912 	13649 
16.850 	0.0046912 	13649 
17.350 	0.0045846 	13483 
17.850 	0.0045846 	13649 
18.350 	0.0045846 	13649 
18.850 	0.0046912 	13649 
19.350 	0.0046912 	13649 
19.850 	0.0045846 	13649 
20.350 	0.0045846 	13649 
20.850 	0.0046912 	13649 
21.350 	0.0045846 	13649 
21.850 	0.0046912 	13649 
22.350 	0.0046912 	13649 
22.850 	0.0045846 	13649 
23.350 	0.0045846 	13649 
23.850 	0.0046912 	13649 
24.350 	0.0046912 	13649 
24.850 	0.0045846 	13649 
25.350 	0.0046912 	13649 
25.850 	0.0046912 	13649 
26.350 	0.0045846 	13816 
26.850 	0.0046912 	13649 
27.350 	0.0046912 	13649 
27.850 	0.0046912 	13649 
28.350 	0.0046912 	13649 
28.850 	0.0045846 	13483 
29.350 	0.0046912 	13649 
29.850 	0.0045846 	13649 
30.350 	0.0045846 	13649 
30.850 	0.0046912 	13649 
31.350 	0.0046912 	13483 
31.850 	0.0046912 	13649 
32.350 	0.0045846 	13649 
32.850 	0.0045846 	13649 
33.350 	0.0046912 	13649 
33.850 	0.0046912 	13649 
34.350 	0.0046912 	13649 
34.850 	0.0045846 	13649 
35.350 	0.0046912 	13649 
35.850 	0.0046912 	13649 
36.350 	0.0046912 	13649 
36.850 	0.0045846 	13649 
37.350 	0.0046912 	13649 
37.850 	0.0046912 	13649 
38.350 	0.0046912 	13649 
38.850 	0.0046912 	13649 
39.350 	0.0046912 	13649 
39.850 	0.0046912 	13649 
40.350 	0.0046912 	13649 
40.850 	0.0046912 	13649 
41.350 	0.0046912 	13649 
41.850 	0.0046912 	13649 
42.350 	0.0047978 	13649 
42.850 	0.0046912 	13649 
43.350 	0.0046912 	13649 
43.850 	0.0046912 	13649 
44.350 	0.0046912 	13649 
44.850 	0.0046912 	13649 
45.350 	0.0047978 	13649 
45.850 	0.0046912 	13649 
46.350 	0.0047978 	13649 
46.850 	0.0047978 	13649 
47.350 	0.0047978 	13649 
47.850 	0.0047978 	13649 
48.350 	0.0047978 	13649 
48.850 	0.0047978 	13649 
49.350 	0.0047978 	13649 
49.850 	0.0047978 	13649 
50.350 	0.0047978 	13649 
50.850 	0.0047978 	13649 
51.350 	0.0047978 	13649 
51.850 	0.0047978 	13649 
52.350 	0.0047978 	13649 
52.850 	0.0047978 	13649 
53.350 	0.0047978 	13649 
53.850 	0.0047978 	13649 
54.350 	0.0049044 	13483 
54.850 	0.0047978 	13649 
55.350 	0.0049044 	13649 
55.850 	0.0047978 	13649 
56.350 	0.0047978 	13649 
56.850 	0.0049044 	13649 
57.350 	0.0049044 	13649 
57.850 	0.0049044 	13649 
58.350 	0.0049044 	13649 
58.850 	0.0049044 	13649 
59.350 	0.0049044 	13816 
59.850 	0.0049044 	13816 
60.350 	0.0049044 	13816 
60.850 	0.0049044 	13649 
61.350 	0.0049044 	13649 
61.850 	0.0049044 	13649 
62.350 	0.0049044 	13649 
62.850 	0.0049044 	13649 
63.350 	0.0049044 	13649 
63.850 	0.0049044 	13649 
64.350 	0.0050111 	13649 
64.850 	0.0049044 	13649 
65.350 	0.0050111 	13649 
65.850 	0.0050111 	13649 
66.350 	0.0050111 	13483 
66.850 	0.0049044 	13649 
67.350 	0.0050111 	13649 
67.850 	0.0050111 	13483 
68.350 	0.0050111 	13816 
68.850 	0.0050111 	13649 
69.350 	0.0050111 	13649 
69.850 	0.0051177 	13816 
70.350 	0.0050111 	13649 
70.850 	0.0050111 	13649 
71.350 	0.0050111 	13649 
71.850 	0.0051177 	13649 
72.350 	0.0051177 	13649 
72.850 	0.0051177 	13649 
73.350 	0.0051177 	13483 
73.850 	0.0050111 	13150 
74.350 	0.0049044 	12984 
74.850 	0.0049044 	12651 
75.300 	0.0047978 	11985 
75.750 	0.0045846 	11319 
76.250 	0.0044780 	10820 
76.717 	0.0043713 	10154 
77.217 	0.0042647 	9654.5 
77.717 	0.0040515 	9155.1 
78.217 	0.0039449 	8822.2 
78.650 	0.0038383 	8156.4 
79.150 	0.0036250 	7823.5 
79.650 	0.0035184 	7324.1 
80.150 	0.0034118 	6824.7 
80.650 	0.0031985 	6325.4 
81.150 	0.0030919 	5992.4 
81.467 	0.0029853 	5326.6 
81.967 	0.0027721 	4993.7 
82.467 	0.0025588 	4660.8 
82.900 	0.0024522 	3995.0 
83.400 	0.0023456 	3828.5 
83.717 	0.0022390 	3162.7 
84.217 	0.0020257 	2829.8 
84.717 	0.0019191 	2163.9 
85.217 	0.0017059 	1997.5 
85.717 	0.0015993 	1664.6 
86.217 	0.0015993 	1498.1 
86.717 	0.0014927 	1664.6 
87.217 	0.0014927 	1498.1 
87.717 	0.0014927 	1331.7 
88.217 	0.0014927 	1331.7 
88.717 	0.0014927 	1331.7 
89.217 	0.0014927 	1165.2 
89.717 	0.0014927 	1165.2 
90.217 	0.0013860 	1165.2 
90.717 	0.0014927 	1165.2 
91.217 	0.0013860 	1331.7 
91.717 	0.0014927 	1165.2 
92.217 	0.0013860 	1165.2 
92.717 	0.0013860 	998.74 
93.217 	0.0013860 	1165.2 
93.717 	0.0014927 	998.74 
94.217 	0.0013860 	998.74 
94.717 	0.0014927 	998.74 
95.217 	0.0013860 	998.74 
95.717 	0.0014927 	998.74 
96.217 	0.0014927 	998.74 
96.717 	0.0014927 	998.74 
97.217 	0.0013860 	998.74 
97.717 	0.0013860 	998.74 
98.217 	0.0013860 	998.74 
98.717 	0.0014927 	998.74 
99.217 	0.0014927 	998.74 
99.717 	0.0014927 	998.74 
100.22 	0.0014927 	998.74 
100.72 	0.0014927 	1165.2 
101.22 	0.0014927 	998.74 
101.72 	0.0014927 	998.74 
102.22 	0.0014927 	832.28 
102.72 	0.0014927 	998.74 
103.22 	0.0014927 	998.74 
103.72 	0.0014927 	998.74 
104.22 	0.0014927 	998.74 
104.72 	0.0013860 	998.74 
105.22 	0.0014927 	998.74 
105.72 	0.0013860 	1165.2 
106.22 	0.0014927 	998.74 
106.72 	0.0012794 	1165.2 
107.22 	0.0010662 	1165.2 
107.72 	0.00085294 	998.74 
108.22 	0.00074633 	998.74 
108.72 	0.00053309 	998.74 
109.22 	0.00042647 	998.74 
109.72 	0.00031985 	998.74 
110.22 	0.00031985 	832.28 
110.72 	0.00021324 	998.74 
111.22 	0.00021324 	998.74 
111.72 	0.00021324 	998.74 
112.22 	0.00010662 	998.74 
112.72 	0.00010662 	1165.2 
113.22 	0.00010662 	998.74 
113.72 	0.00021324 	1165.2 
114.22 	0.00010662 	998.74 
114.72 	0.00010662 	998.74 
115.22 	0.00010662 	998.74 
115.72 	0.00021324 	998.74 
116.22 	0.00021324 	998.74 
116.72 	0.00021324 	1165.2 
117.22 	0.00021324 	998.74 
117.72 	0.00021324 	1165.2 
118.22 	0.00021324 	998.74 
118.72 	0.00031985 	998.74 
119.22 	0.00031985 	832.28 
119.72 	0.00031985 	998.74 
120.22 	0.00031985 	1165.2 
120.72 	0.00031985 	998.74 
121.22 	0.00031985 	1165.2 
121.72 	0.00042647 	1165.2 
122.22 	0.00042647 	1165.2 
122.72 	0.00042647 	998.74 
123.22 	0.00042647 	998.74 
123.72 	0.00042647 	998.74 
124.22 	0.00053309 	998.74 
124.72 	0.00053309 	832.28 
125.22 	0.00053309 	832.28 
125.72 	0.00053309 	998.74 
126.22 	0.00053309 	998.74 
126.72 	0.00053309 	998.74 
127.22 	0.00053309 	1165.2 
127.72 	0.00053309 	998.74 
128.22 	0.00053309 	998.74 
128.72 	0.00063971 	998.74 
129.22 	0.00053309 	998.74 
129.72 	0.00063971 	998.74 
130.22 	0.00053309 	832.28 
130.72 	0.00053309 	1165.2 
131.22 	0.00053309 	998.74 
131.72 	0.00053309 	998.74 
132.22 	0.00063971 	1165.2 
132.72 	0.00063971 	998.74 
133.22 	0.00063971 	998.74 
133.72 	0.00063971 	832.28 
134.22 	0.00063971 	832.28 
134.72 	0.00063971 	832.28 
135.22 	0.00063971 	998.74 
135.72 	0.00063971 	998.74 
136.22 	0.00074633 	998.74 
136.72 	0.00074633 	998.74 
137.22 	0.00074633 	1165.2 
137.72 	0.00074633 	998.74 
138.22 	0.00074633 	998.74 
138.72 	0.00085294 	998.74 
139.22 	0.00074633 	998.74 
139.72 	0.00074633 	998.74 
140.22 	0.00085294 	998.74 
140.72 	0.00085294 	998.74 
141.22 	0.00074633 	1165.2 
141.72 	0.00074633 	1165.2 
142.22 	0.00085294 	998.74 
142.72 	0.00085294 	998.74 
143.22 	0.00074633 	998.74 
143.72 	0.00074633 	998.74 
144.22 	0.00085294 	832.28 
144.72 	0.00074633 	998.74 
145.22 	0.00085294 	998.74 
145.72 	0.00074633 	998.74 
146.22 	0.00085294 	1165.2 
146.72 	0.00085294 	998.74 
147.22 	0.00074633 	998.74 
147.72 	0.00085294 	998.74 
148.22 	0.00085294 	1165.2 
148.72 	0.00095956 	1498.1 
149.22 	0.0010662 	1664.6 
149.72 	0.0011728 	2163.9 
150.22 	0.0012794 	2496.9 
150.72 	0.0014927 	2996.2 
151.17 	0.0017059 	3662.0 
151.67 	0.0018125 	3828.5 
152.17 	0.0019191 	4327.9 
152.62 	0.0022390 	4993.7 
153.02 	0.0023456 	5659.5 
153.52 	0.0026655 	6325.4 
154.02 	0.0028787 	6991.2 
154.50 	0.0030919 	7657.0 
155.00 	0.0033052 	7989.9 
155.48 	0.0034118 	8655.8 
155.98 	0.0036250 	9155.1 
156.48 	0.0038383 	9654.5 
156.98 	0.0039449 	10320 
157.48 	0.0041581 	10653 
157.98 	0.0042647 	11153 
158.48 	0.0044780 	11818 
158.98 	0.0045846 	12151 
159.48 	0.0046912 	12484 
159.98 	0.0047978 	12984 
160.48 	0.0049044 	13317 
160.98 	0.0049044 	13317 
161.48 	0.0049044 	13483 
161.98 	0.0049044 	13483 
162.48 	0.0049044 	13483 
162.98 	0.0050111 	13649 
163.48 	0.0050111 	13649 
163.98 	0.0050111 	13649 
164.48 	0.0050111 	13649 
164.98 	0.0050111 	13649 
165.48 	0.0050111 	13483 
165.98 	0.0049044 	13483 
166.48 	0.0049044 	13649 
166.98 	0.0050111 	13649 
167.48 	0.0050111 	13649 
167.98 	0.0050111 	13649 
168.48 	0.0049044 	13649 
168.98 	0.0049044 	13483 
169.48 	0.0049044 	13649 
169.98 	0.0049044 	13649 
170.48 	0.0049044 	13816 
170.98 	0.0049044 	13649 
171.48 	0.0049044 	13649 
171.98 	0.0049044 	13649 
172.48 	0.0049044 	13649 
172.98 	0.0049044 	13649 
173.48 	0.0049044 	13649 
173.98 	0.0049044 	13649 
174.48 	0.0049044 	13649 
174.98 	0.0049044 	13649 
175.48 	0.0047978 	13649 
175.98 	0.0049044 	13649 
176.48 	0.0049044 	13816 
176.98 	0.0049044 	13649 
177.48 	0.0049044 	13816 
177.98 	0.0047978 	13649 
178.48 	0.0049044 	13649 
178.98 	0.0047978 	13649 
179.48 	0.0047978 	13649 
179.98 	0.0047978 	13816 
180.48 	0.0047978 	13649 
180.98 	0.0047978 	13649 
181.48 	0.0047978 	13649 
181.98 	0.0047978 	13649 
182.48 	0.0047978 	13649 
182.98 	0.0047978 	13649 
183.48 	0.0047978 	13649 
183.98 	0.0047978 	13816 
184.48 	0.0047978 	13649 
184.98 	0.0047978 	13649 
185.48 	0.0046912 	13649 
185.98 	0.0046912 	13483 
186.48 	0.0046912 	13483 
186.98 	0.0045846 	13649 
187.48 	0.0045846 	13649 
187.98 	0.0046912 	13649 
188.48 	0.0045846 	13649 
188.98 	0.0045846 	13483 
189.48 	0.0045846 	13649 
189.98 	0.0045846 	13649 
190.48 	0.0045846 	13649 
190.98 	0.0045846 	13649 
191.48 	0.0045846 	13649 
191.98 	0.0045846 	13649 
192.48 	0.0045846 	13649 
192.98 	0.0045846 	13649 
193.48 	0.0045846 	13649 
193.98 	0.0045846 	13649 
194.48 	0.0045846 	13649 
194.98 	0.0045846 	13649 
195.48 	0.0044780 	13649 
195.98 	0.0044780 	13649 
196.48 	0.0044780 	13649 
196.98 	0.0044780 	13649 
197.48 	0.0044780 	13649 
197.98 	0.0044780 	13649 
198.48 	0.0043713 	13649 
198.98 	0.0043713 	13483 
199.48 	0.0043713 	13483 
199.98 	0.0043713 	13483 
200.48 	0.0043713 	13649 
200.98 	0.0043713 	13816 
201.48 	0.0043713 	13649 
201.98 	0.0043713 	13649 
202.48 	0.0042647 	13649 
202.98 	0.0043713 	13649 
203.48 	0.0042647 	13649 
203.98 	0.0042647 	13649 
204.48 	0.0043713 	13816 
204.98 	0.0042647 	13649 
205.48 	0.0042647 	13649 
205.98 	0.0042647 	13649 
206.48 	0.0041581 	13649 
206.98 	0.0041581 	13649 
207.48 	0.0041581 	13649 
207.98 	0.0042647 	13649 
208.48 	0.0041581 	13816 
208.98 	0.0042647 	13649 
209.48 	0.0041581 	13649 
209.98 	0.0041581 	13649 
210.48 	0.0041581 	13649 
210.98 	0.0041581 	13649 
211.48 	0.0042647 	13649 
211.98 	0.0041581 	13649 
212.48 	0.0041581 	13649 
212.98 	0.0041581 	13649 
213.48 	0.0041581 	13649 
213.98 	0.0041581 	13649 
214.48 	0.0041581 	13816 
214.98 	0.0041581 	13649 
215.48 	0.0041581 	13649 
215.98 	0.0041581 	13649 
216.48 	0.0041581 	13649 
216.98 	0.0041581 	13649 
217.48 	0.0040515 	13649 
217.98 	0.0041581 	13649 
218.48 	0.0040515 	13649 
218.98 	0.0041581 	13649 
219.48 	0.0040515 	13649 
219.98 	0.0040515 	13649 
220.48 	0.0041581 	13816 
220.95 	0.0040515 	13150 
221.45 	0.0039449 	12984 
221.95 	0.0038383 	12651 
222.38 	0.0036250 	11985 
222.83 	0.0035184 	11319 
223.33 	0.0033052 	10820 
223.80 	0.0030919 	10154 
224.30 	0.0029853 	9820.9 
224.75 	0.0027721 	9155.1 
225.25 	0.0026655 	8822.2 
225.75 	0.0024522 	8322.8 
226.15 	0.0023456 	7657.0 
226.65 	0.0021324 	7324.1 
227.15 	0.0019191 	6824.7 
227.65 	0.0018125 	6158.9 
228.15 	0.0015993 	5826.0 
228.65 	0.0014927 	5326.6 
229.15 	0.0011728 	4993.7 
229.65 	0.00095956 	4494.3 
230.15 	0.00074633 	3828.5 
230.65 	0.00053309 	3495.6 
231.15 	0.00021324 	2996.2 
231.65 	0.00000 	2663.3 
232.15 	-0.0002136 	1997.5 
232.65 	-0.0004273 	1831.0 
233.15 	-0.0006409 	1664.6 
233.65 	-0.0007478 	1664.6 
234.15 	-0.0007478 	1498.1 
234.65 	-0.0008546 	1331.7 
235.15 	-0.0008546 	1331.7 
235.65 	-0.0009614 	1331.7 
236.15 	-0.0009614 	1165.2 
236.65 	-0.0009614 	1165.2 
237.15 	-0.0010683 	1165.2 
237.65 	-0.0009614 	1165.2 
238.15 	-0.0009614 	1331.7 
238.65 	-0.0010683 	1165.2 
239.15 	-0.0010683 	998.74 
239.65 	-0.0010683 	998.74 
240.15 	-0.0010683 	1165.2 
240.65 	-0.0010683 	1165.2 
241.15 	-0.0010683 	998.74 
241.65 	-0.0010683 	832.28 
242.15 	-0.0010683 	998.74 
242.65 	-0.0010683 	998.74 
243.15 	-0.0010683 	998.74 
243.65 	-0.0010683 	998.74 
244.15 	-0.0010683 	998.74 
244.65 	-0.0009614 	998.74 
245.15 	-0.0009614 	998.74 
245.65 	-0.0010683 	998.74 
246.15 	-0.0009614 	998.74 
246.65 	-0.0009614 	1165.2 
247.15 	-0.0009614 	1165.2 
247.65 	-0.0010683 	998.74 
248.15 	-0.0009614 	998.74 
248.65 	-0.0010683 	998.74 
249.15 	-0.0010683 	832.28 
249.65 	-0.0009614 	998.74 
250.15 	-0.0009614 	998.74 
250.65 	-0.0010683 	998.74 
251.15 	-0.0009614 	1165.2 
251.65 	-0.0009614 	998.74 
252.15 	-0.0011751 	998.74 
252.65 	-0.0010683 	832.28 
253.15 	-0.0010683 	998.74 
253.65 	-0.0010683 	832.28 
254.15 	-0.0010683 	998.74 
254.65 	-0.0011751 	998.74 
255.15 	-0.0010683 	998.74 
255.65 	-0.0011751 	998.74 
256.15 	-0.0011751 	998.74 
256.65 	-0.0011751 	998.74 
257.15 	-0.0011751 	998.74 
257.65 	-0.0011751 	998.74 
258.15 	-0.0011751 	1165.2 
258.65 	-0.0011751 	998.74 
259.15 	-0.0011751 	998.74 
259.65 	-0.0011751 	998.74 
260.15 	-0.0011751 	998.74 
260.65 	-0.0011751 	998.74 
261.15 	-0.0012820 	998.74 
261.65 	-0.0012820 	998.74 
262.15 	-0.0012820 	998.74 
262.65 	-0.0012820 	998.74 
263.15 	-0.0012820 	998.74 
263.65 	-0.0011751 	998.74 
264.15 	-0.0012820 	998.74 
264.65 	-0.0012820 	832.28 
265.15 	-0.0012820 	832.28 
265.65 	-0.0012820 	998.74 
266.15 	-0.0012820 	998.74 
266.65 	-0.0012820 	998.74 
267.15 	-0.0012820 	1165.2 
267.65 	-0.0012820 	998.74 
268.15 	-0.0012820 	1165.2 
268.65 	-0.0013888 	1165.2 
269.15 	-0.0012820 	998.74 
269.65 	-0.0012820 	998.74 
270.15 	-0.0012820 	998.74 
270.65 	-0.0013888 	832.28 
271.15 	-0.0013888 	998.74 
271.65 	-0.0013888 	998.74 
272.15 	-0.0012820 	998.74 
272.65 	-0.0013888 	998.74 
273.15 	-0.0012820 	998.74 
273.65 	-0.0013888 	998.74 
274.15 	-0.0013888 	998.74 
274.65 	-0.0013888 	998.74 
275.15 	-0.0013888 	998.74 
275.65 	-0.0013888 	998.74 
276.15 	-0.0013888 	998.74 
276.65 	-0.0014956 	998.74 
277.15 	-0.0014956 	998.74 
277.65 	-0.0014956 	998.74 
278.15 	-0.0014956 	998.74 
278.65 	-0.0014956 	998.74 
279.15 	-0.0014956 	998.74 
279.65 	-0.0014956 	998.74 
280.15 	-0.0014956 	998.74 
280.65 	-0.0014956 	998.74 
281.15 	-0.0014956 	832.28 
281.65 	-0.0014956 	998.74 
282.15 	-0.0014956 	998.74 
282.65 	-0.0014956 	998.74 
283.15 	-0.0014956 	1165.2 
283.65 	-0.0014956 	1165.2 
284.15 	-0.0014956 	998.74 
284.65 	-0.0014956 	998.74 
285.15 	-0.0014956 	998.74 
285.65 	-0.0014956 	998.74 
286.15 	-0.0014956 	832.28 
286.65 	-0.0014956 	998.74 
287.15 	-0.0014956 	998.74 
287.65 	-0.0014956 	998.74 
288.15 	-0.0014956 	998.74 
288.65 	-0.0014956 	998.74 
289.15 	-0.0014956 	998.74 
289.65 	-0.0014956 	998.74 
290.15 	-0.0014956 	998.74 
290.65 	-0.0013888 	998.74 
291.15 	-0.0014956 	832.28 
291.65 	-0.0013888 	832.28 
292.15 	-0.0013888 	998.74 
292.65 	-0.0013888 	998.74 
293.15 	-0.0013888 	1165.2 
293.65 	-0.0013888 	998.74 
294.15 	-0.0013888 	998.74 
294.65 	-0.0013888 	998.74 
295.15 	-0.0012820 	1165.2 
295.65 	-0.0013888 	1331.7 
296.15 	-0.0011751 	1498.1 
296.65 	-0.0010683 	1997.5 
297.15 	-0.0009614 	2330.4 
297.65 	-0.0007478 	2829.8 
298.10 	-0.0005341 	3495.6 
298.60 	-0.0003204 	3828.5 
299.10 	-0.0002136 	4327.9 
299.60 	0.00010662 	4827.2 
300.00 	0.00021324 	5493.1 
300.38 	0.00053309 	6158.9 
300.88 	0.00074633 	6658.3 
301.30 	0.00085294 	7324.1 
301.80 	0.0010662 	7657.0 
302.20 	0.0012794 	8322.8 
302.70 	0.0014927 	8822.2 
303.20 	0.0017059 	9155.1 
303.62 	0.0018125 	9820.9 
304.12 	0.0020257 	10320 
304.62 	0.0021324 	10820 
305.12 	0.0023456 	11319 
305.62 	0.0024522 	11818 
306.12 	0.0025588 	12318 
306.62 	0.0027721 	12651 
307.12 	0.0027721 	12984 
307.62 	0.0028787 	13317 
308.12 	0.0029853 	13317 
308.62 	0.0029853 	13483 
309.12 	0.0029853 	13483 
309.62 	0.0029853 	13649 
310.12 	0.0029853 	13649 
310.62 	0.0030919 	13649 
311.12 	0.0029853 	13649 
311.62 	0.0029853 	13649 
312.12 	0.0029853 	13649 
312.62 	0.0029853 	13649 
313.12 	0.0030919 	13649 
313.62 	0.0029853 	13649 
314.12 	0.0029853 	13649 
314.62 	0.0030919 	13649 
315.12 	0.0030919 	13649 
315.62 	0.0030919 	13649 
316.12 	0.0030919 	13649 
316.62 	0.0030919 	13649 
317.12 	0.0029853 	13649 
317.62 	0.0029853 	13816 
318.12 	0.0030919 	13649 
318.62 	0.0030919 	13649 
319.12 	0.0030919 	13649 
319.62 	0.0030919 	13649 
320.12 	0.0030919 	13649 
320.62 	0.0030919 	13649 
321.12 	0.0030919 	13649 
321.62 	0.0030919 	13649 
322.12 	0.0030919 	13649 
322.62 	0.0030919 	13649 
323.12 	0.0030919 	13649 
323.62 	0.0030919 	13649 
324.12 	0.0031985 	13816 
324.62 	0.0030919 	13649 
325.12 	0.0030919 	13649 
325.62 	0.0030919 	13649 
326.12 	0.0030919 	13649 
326.62 	0.0030919 	13649 
327.12 	0.0030919 	13649 
327.62 	0.0030919 	13649 
328.12 	0.0030919 	13649 
328.62 	0.0031985 	13649 
329.12 	0.0031985 	13649 
329.62 	0.0030919 	13649 
330.12 	0.0030919 	13649 
330.62 	0.0030919 	13649 
331.12 	0.0030919 	13649 
331.62 	0.0030919 	13649 
332.12 	0.0031985 	13649 
332.62 	0.0030919 	13649 
333.12 	0.0030919 	13649 
333.62 	0.0030919 	13483 
334.12 	0.0030919 	13483 
334.62 	0.0031985 	13649 
335.12 	0.0031985 	13649 
335.62 	0.0031985 	13649 
336.12 	0.0030919 	13649 
336.62 	0.0031985 	13649 
337.12 	0.0031985 	13649 
337.62 	0.0030919 	13649 
338.12 	0.0030919 	13649 
338.62 	0.0031985 	13649 
339.12 	0.0031985 	13649 
339.62 	0.0030919 	13649 
340.12 	0.0031985 	13649 
340.62 	0.0031985 	13816 
341.12 	0.0031985 	13649 
341.62 	0.0031985 	13649 
342.12 	0.0030919 	13649 
342.62 	0.0030919 	13649 
343.12 	0.0031985 	13649 
343.62 	0.0031985 	13649 
344.12 	0.0031985 	13649 
344.62 	0.0031985 	13649 
345.12 	0.0031985 	13649 
345.62 	0.0031985 	13649 
346.12 	0.0031985 	13816 
346.62 	0.0031985 	13649 
347.12 	0.0031985 	13649 
347.62 	0.0030919 	13649 
348.12 	0.0031985 	13649 
348.62 	0.0031985 	13649 
349.12 	0.0031985 	13816 
349.62 	0.0031985 	13816 
350.12 	0.0031985 	13649 
350.62 	0.0031985 	13649 
351.12 	0.0030919 	13649 
351.62 	0.0031985 	13649 
352.12 	0.0031985 	13816 
352.62 	0.0031985 	13649 
353.12 	0.0031985 	13649 
353.62 	0.0030919 	13649 
354.12 	0.0031985 	13649 
354.62 	0.0030919 	13649 
355.12 	0.0030919 	13649 
355.62 	0.0031985 	13816 
356.12 	0.0031985 	13649 
356.62 	0.0031985 	13649 
357.12 	0.0031985 	13649 
357.62 	0.0031985 	13649 
358.12 	0.0031985 	13649 
358.62 	0.0031985 	13649 
359.12 	0.0031985 	13816 
359.62 	0.0030919 	13649 
360.12 	0.0031985 	13649 
360.62 	0.0031985 	13649 
361.12 	0.0030919 	13649 
361.62 	0.0031985 	13649 
362.12 	0.0031985 	13649 
362.62 	0.0031985 	13649 
363.12 	0.0031985 	13483 
363.62 	0.0031985 	13649 
364.12 	0.0031985 	13649 
364.62 	0.0031985 	13649 
365.12 	0.0031985 	13649 
365.62 	0.0031985 	13649 
366.12 	0.0031985 	13649 
366.62 	0.0031985 	13816 
367.12 	0.0031985 	13649 
367.62 	0.0031985 	13483 
368.12 	0.0030919 	13150 
368.62 	0.0029853 	12984 
369.12 	0.0029853 	12651 
369.43 	0.0028787 	11985 
369.88 	0.0026655 	11319 
370.38 	0.0024522 	10820 
370.85 	0.0023456 	10154 
371.35 	0.0022390 	9820.9 
371.85 	0.0020257 	9321.6 
372.32 	0.0019191 	8655.8 
372.82 	0.0017059 	8322.8 
373.28 	0.0014927 	7657.0 
373.78 	0.0013860 	7157.6 
374.28 	0.0011728 	6658.3 
374.78 	0.0010662 	6158.9 
375.28 	0.00085294 	5826.0 
375.75 	0.00074633 	5160.2 
376.25 	0.00053309 	4993.7 
376.75 	0.00031985 	4494.3 
377.22 	0.00010662 	3828.5 
377.72 	0.00000 	3495.6 
378.22 	-0.0002136 	2829.8 
378.72 	-0.0004273 	2663.3 
379.08 	-0.0005341 	1997.5 
379.58 	-0.0006409 	1831.0 
380.08 	-0.0007478 	1664.6 
380.58 	-0.0008546 	1498.1 
381.08 	-0.0008546 	1498.1 
381.58 	-0.0008546 	1331.7 
382.08 	-0.0008546 	1331.7 
382.58 	-0.0009614 	1165.2 
383.08 	-0.0009614 	1165.2 
383.58 	-0.0009614 	1165.2 
384.08 	-0.0009614 	1165.2 
384.58 	-0.0009614 	1165.2 
385.08 	-0.0009614 	1331.7 
385.58 	-0.0009614 	1165.2 
386.08 	-0.0009614 	1165.2 
386.58 	-0.0009614 	998.74 
387.08 	-0.0010683 	1165.2 
387.58 	-0.0010683 	998.74 
388.08 	-0.0010683 	1165.2 
388.58 	-0.0010683 	1165.2 
389.08 	-0.0010683 	1165.2 
389.58 	-0.0010683 	1165.2 
390.08 	-0.0011751 	1165.2 
390.58 	-0.0011751 	998.74 
391.08 	-0.0011751 	998.74 
391.58 	-0.0011751 	1165.2 
392.08 	-0.0011751 	998.74 
392.58 	-0.0011751 	1165.2 
393.08 	-0.0011751 	998.74 
393.58 	-0.0011751 	998.74 
394.08 	-0.0012820 	998.74 
394.58 	-0.0012820 	998.74 
395.08 	-0.0012820 	998.74 
395.58 	-0.0012820 	1165.2 
396.08 	-0.0012820 	998.74 
396.58 	-0.0012820 	1165.2 
397.08 	-0.0012820 	998.74 
397.58 	-0.0012820 	998.74 
398.08 	-0.0012820 	832.28 
398.58 	-0.0012820 	832.28 
399.08 	-0.0012820 	998.74 
399.58 	-0.0012820 	998.74 
400.08 	-0.0012820 	998.74 
400.58 	-0.0012820 	1165.2 
401.08 	-0.0012820 	998.74 
401.58 	-0.0012820 	998.74 
402.08 	-0.0012820 	998.74 
402.58 	-0.0012820 	832.28 
403.08 	-0.0012820 	998.74 
403.58 	-0.0012820 	998.74 
404.08 	-0.0013888 	998.74 
404.58 	-0.0012820 	998.74 
405.08 	-0.0012820 	998.74 
405.58 	-0.0013888 	998.74 
406.08 	-0.0012820 	1165.2 
406.58 	-0.0013888 	1165.2 
407.08 	-0.0012820 	998.74 
407.58 	-0.0013888 	998.74 
408.08 	-0.0013888 	998.74 
408.58 	-0.0013888 	832.28 
409.08 	-0.0012820 	998.74 
409.58 	-0.0012820 	998.74 
410.08 	-0.0013888 	998.74 
410.58 	-0.0012820 	998.74 
411.08 	-0.0013888 	998.74 
411.58 	-0.0013888 	998.74 
412.08 	-0.0013888 	998.74 
412.58 	-0.0013888 	998.74 
413.08 	-0.0012820 	998.74 
413.58 	-0.0012820 	998.74 
414.08 	-0.0013888 	998.74 
414.58 	-0.0013888 	998.74 
415.08 	-0.0012820 	832.28 
415.58 	-0.0012820 	998.74 
416.08 	-0.0012820 	998.74 
416.58 	-0.0013888 	998.74 
417.08 	-0.0012820 	998.74 
417.58 	-0.0012820 	998.74 
418.08 	-0.0012820 	998.74 
418.58 	-0.0012820 	998.74 
419.08 	-0.0012820 	998.74 
419.58 	-0.0012820 	998.74 
420.08 	-0.0012820 	998.74 
420.58 	-0.0012820 	1165.2 
421.08 	-0.0012820 	998.74 
421.58 	-0.0012820 	998.74 
422.08 	-0.0012820 	832.28 
422.58 	-0.0012820 	998.74 
423.08 	-0.0011751 	998.74 
423.58 	-0.0011751 	998.74 
424.08 	-0.0011751 	998.74 
424.58 	-0.0011751 	998.74 
425.08 	-0.0011751 	1165.2 
425.58 	-0.0011751 	832.28 
426.08 	-0.0011751 	832.28 
426.58 	-0.0010683 	832.28 
427.08 	-0.0010683 	998.74 
427.58 	-0.0010683 	998.74 
428.08 	-0.0010683 	998.74 
428.58 	-0.0010683 	998.74 
429.08 	-0.0010683 	1165.2 
429.58 	-0.0009614 	998.74 
430.08 	-0.0009614 	998.74 
430.58 	-0.0009614 	998.74 
431.08 	-0.0009614 	998.74 
431.58 	-0.0008546 	832.28 
432.08 	-0.0009614 	998.74 
432.58 	-0.0009614 	998.74 
433.08 	-0.0009614 	1165.2 
433.58 	-0.0009614 	998.74 
434.08 	-0.0008546 	998.74 
434.58 	-0.0008546 	998.74 
435.08 	-0.0009614 	998.74 
435.58 	-0.0008546 	998.74 
436.08 	-0.0008546 	998.74 
436.58 	-0.0008546 	998.74 
437.08 	-0.0008546 	832.28 
437.58 	-0.0008546 	998.74 
438.08 	-0.0008546 	998.74 
438.58 	-0.0008546 	998.74 
439.08 	-0.0008546 	998.74 
439.58 	-0.0008546 	998.74 
440.08 	-0.0008546 	1165.2 
440.58 	-0.0008546 	998.74 
441.08 	-0.0008546 	998.74 
441.38 	-0.0008546 	1165.2 
441.88 	-0.0008546 	998.74 
442.38 	-0.0008546 	998.74 
442.88 	-0.0007478 	998.74 
443.38 	-0.0008546 	998.74 
443.88 	-0.0008546 	998.74 
444.38 	-0.0008546 	998.74 
444.88 	-0.0007478 	998.74 
445.38 	-0.0008546 	998.74 
445.88 	-0.0007478 	998.74 
446.38 	-0.0008546 	1165.2 
446.88 	-0.0007478 	1165.2 
447.38 	-0.0007478 	998.74 
447.88 	-0.0007478 	998.74 
448.38 	-0.0007478 	998.74 
448.88 	-0.0007478 	832.28 
449.38 	-0.0007478 	998.74 
449.88 	-0.0007478 	998.74 
450.38 	-0.0007478 	998.74 
450.88 	-0.0007478 	1165.2 
451.38 	-0.0007478 	1165.2 
451.88 	-0.0007478 	998.74 
452.38 	-0.0007478 	998.74 
452.88 	-0.0007478 	998.74 
453.38 	-0.0007478 	998.74 
453.88 	-0.0007478 	998.74 
454.38 	-0.0007478 	998.74 
454.88 	-0.0007478 	998.74 
455.38 	-0.0007478 	832.28 
455.88 	-0.0007478 	998.74 
456.38 	-0.0007478 	998.74 
456.88 	-0.0007478 	1165.2 
457.38 	-0.0007478 	1165.2 
457.88 	-0.0007478 	998.74 
458.38 	-0.0007478 	998.74 
458.88 	-0.0008546 	998.74 
459.38 	-0.0007478 	998.74 
459.88 	-0.0007478 	998.74 
460.38 	-0.0007478 	1165.2 
460.88 	-0.0008546 	1165.2 
461.38 	-0.0007478 	1165.2 
461.88 	-0.0007478 	998.74 
462.38 	-0.0007478 	998.74 
462.88 	-0.0008546 	998.74 
463.38 	-0.0007478 	998.74 
463.88 	-0.0008546 	998.74 
464.38 	-0.0007478 	998.74 
464.88 	-0.0007478 	998.74 
465.38 	-0.0007478 	998.74 
465.88 	-0.0007478 	998.74 
466.38 	-0.0007478 	998.74 
466.88 	-0.0007478 	998.74 
467.38 	-0.0007478 	998.74 
467.88 	-0.0007478 	998.74 
468.38 	-0.0007478 	832.28 
468.88 	-0.0007478 	998.74 
469.38 	-0.0006409 	998.74 
469.88 	-0.0007478 	1165.2 
470.38 	-0.0007478 	998.74 
470.88 	-0.0006409 	998.74 
471.38 	-0.0006409 	998.74 
471.88 	-0.0007478 	998.74 
472.38 	-0.0006409 	998.74 
472.88 	-0.0006409 	998.74 
473.38 	-0.0006409 	1165.2 
473.88 	-0.0005341 	1498.1 
474.38 	-0.0004273 	1664.6 
474.88 	-0.0003204 	1997.5 
475.38 	-0.0001068 	2496.9 
475.88 	0.00010662 	3162.7 
476.38 	0.00021324 	3662.0 
476.88 	0.00053309 	4161.4 
477.38 	0.00074633 	4494.3 
477.88 	0.00085294 	5160.2 
478.28 	0.0010662 	5826.0 
478.78 	0.0013860 	6158.9 
479.00 	0.0014927 	6824.7 
479.50 	0.0017059 	7157.6 
479.88 	0.0018125 	7823.5 
480.38 	0.0020257 	8322.8 
480.88 	0.0022390 	8988.7 
481.38 	0.0024522 	9488.0 
481.88 	0.0025588 	9987.4 
482.38 	0.0027721 	10487 
482.88 	0.0029853 	10986 
483.38 	0.0030919 	11652 
483.88 	0.0033052 	11985 
484.38 	0.0034118 	12484 
484.88 	0.0034118 	12817 
485.38 	0.0035184 	13150 
485.88 	0.0036250 	13317 
486.38 	0.0036250 	13317 
486.88 	0.0037316 	13483 
487.38 	0.0037316 	13483 
487.88 	0.0037316 	13483 
488.38 	0.0037316 	13649 
488.88 	0.0037316 	13649 
489.38 	0.0037316 	13649 
489.88 	0.0037316 	13649 
490.38 	0.0037316 	13649 
490.88 	0.0037316 	13649 
491.38 	0.0037316 	13483 
491.88 	0.0037316 	13649 
492.38 	0.0037316 	13649 
492.88 	0.0037316 	13649 
493.38 	0.0037316 	13649 
493.88 	0.0037316 	13649 
494.38 	0.0037316 	13483 
494.88 	0.0037316 	13816 
495.38 	0.0037316 	13816 
495.88 	0.0037316 	13649 
496.38 	0.0037316 	13649 
496.88 	0.0037316 	13649 
497.38 	0.0037316 	13649 
497.88 	0.0037316 	13649 
498.38 	0.0037316 	13649 
498.88 	0.0037316 	13649 
499.38 	0.0037316 	13649 
499.88 	0.0037316 	13649 
500.38 	0.0037316 	13649 
500.88 	0.0037316 	13649 
501.38 	0.0037316 	13649 
501.88 	0.0037316 	13649 
502.38 	0.0038383 	13649 
502.88 	0.0037316 	13649 
503.38 	0.0037316 	13649 
503.88 	0.0037316 	13649 
504.38 	0.0038383 	13649 
504.88 	0.0037316 	13649 
505.38 	0.0037316 	13649 
505.88 	0.0037316 	13649 
506.38 	0.0037316 	13649 
506.88 	0.0037316 	13483 
507.38 	0.0037316 	13649 
507.88 	0.0037316 	13649 
508.38 	0.0037316 	13649 
508.88 	0.0037316 	13649 
509.38 	0.0037316 	13649 
509.88 	0.0037316 	13649 
510.38 	0.0037316 	13649 
510.88 	0.0037316 	13649 
511.38 	0.0037316 	13483 
511.88 	0.0037316 	13649 
512.38 	0.0037316 	13649 
512.88 	0.0037316 	13649 
513.38 	0.0037316 	13816 
513.88 	0.0037316 	13649 
514.38 	0.0038383 	13649 
514.88 	0.0037316 	13483 
515.38 	0.0037316 	13649 
515.88 	0.0037316 	13649 
516.38 	0.0038383 	13649 
516.88 	0.0037316 	13649 
517.38 	0.0037316 	13649 
517.88 	0.0037316 	13483 
518.38 	0.0037316 	13649 
518.88 	0.0037316 	13649 
519.38 	0.0037316 	13649 
519.88 	0.0038383 	13649 
520.38 	0.0037316 	13649 
520.88 	0.0037316 	13649 
521.38 	0.0037316 	13483 
521.88 	0.0037316 	13649 
522.38 	0.0037316 	13816 
522.88 	0.0037316 	13816 
523.38 	0.0037316 	13649 
523.88 	0.0037316 	13649 
524.38 	0.0037316 	13649 
524.88 	0.0037316 	13816 
525.38 	0.0037316 	13649 
525.88 	0.0038383 	13649 
526.38 	0.0037316 	13649 
526.88 	0.0037316 	13649 
527.38 	0.0038383 	13649 
527.88 	0.0037316 	13816 
528.38 	0.0037316 	13816 
528.88 	0.0037316 	13649 
529.38 	0.0037316 	13649 
529.88 	0.0037316 	13649 
530.38 	0.0037316 	13649 
530.88 	0.0037316 	13649 
531.38 	0.0037316 	13649 
531.88 	0.0037316 	13816 
532.38 	0.0037316 	13649 
532.88 	0.0037316 	13649 
533.38 	0.0037316 	13649 
533.88 	0.0038383 	13649 
534.38 	0.0037316 	13649 
534.88 	0.0037316 	13649 
535.38 	0.0037316 	13649 
535.88 	0.0037316 	13649 
536.38 	0.0037316 	13649 
536.88 	0.0037316 	13649 
537.38 	0.0038383 	13649 
537.88 	0.0037316 	13649 
538.38 	0.0037316 	13649 
538.88 	0.0037316 	13649 
539.38 	0.0038383 	13649 
539.88 	0.0038383 	13816 
540.38 	0.0038383 	13649 
540.88 	0.0037316 	13649 
541.38 	0.0038383 	13649 
541.88 	0.0037316 	13649 
542.38 	0.0037316 	13649 
542.88 	0.0037316 	13483 
543.38 	0.0037316 	13649 
543.88 	0.0037316 	13649 
544.38 	0.0037316 	13649 
544.88 	0.0037316 	13649 
545.07 	0.0037316 	13649 
545.57 	0.0037316 	13649 
546.07 	0.0037316 	13483 
546.57 	0.0037316 	13649 
547.07 	0.0037316 	13649 
547.57 	0.0037316 	13649 
548.07 	0.0037316 	13649 
548.57 	0.0038383 	13649 
549.07 	0.0037316 	13649 
549.57 	0.0037316 	13649 
550.07 	0.0037316 	13483 
550.57 	0.0037316 	13649 
551.07 	0.0037316 	13649 
551.57 	0.0037316 	13649 
552.07 	0.0037316 	13649 
552.57 	0.0037316 	13649 
553.07 	0.0037316 	13649 
553.57 	0.0037316 	13483 
554.07 	0.0037316 	13649 
554.57 	0.0037316 	13649 
555.07 	0.0037316 	13649 
555.57 	0.0037316 	13649 
556.07 	0.0037316 	13649 
556.57 	0.0037316 	13649 
557.07 	0.0037316 	13649 
557.57 	0.0037316 	13816 
558.07 	0.0037316 	13649 
558.57 	0.0037316 	13816 
559.07 	0.0037316 	13649 
559.57 	0.0037316 	13649 
560.07 	0.0037316 	13649 
560.57 	0.0037316 	13816 
561.07 	0.0037316 	13649 
561.57 	0.0037316 	13649 
562.07 	0.0037316 	13649 
562.57 	0.0037316 	13649 
563.07 	0.0037316 	13649 
563.57 	0.0037316 	13649 
564.07 	0.0037316 	13649 
564.57 	0.0037316 	13483 
565.07 	0.0037316 	13649 
565.57 	0.0038383 	13649 
566.07 	0.0037316 	13649 
566.57 	0.0037316 	13649 
567.07 	0.0037316 	13649 
567.57 	0.0037316 	13649 
568.07 	0.0037316 	13649 
568.57 	0.0037316 	13649 
569.07 	0.0037316 	13649 
569.57 	0.0037316 	13649 
570.07 	0.0037316 	13649 
570.57 	0.0037316 	13649 
571.07 	0.0037316 	13649 
571.57 	0.0037316 	13649 
572.07 	0.0038383 	13816 
572.57 	0.0038383 	13649 
573.07 	0.0037316 	13649 
573.57 	0.0037316 	13649 
574.07 	0.0037316 	13649 
574.57 	0.0037316 	13649 
575.07 	0.0037316 	13649 
575.57 	0.0037316 	13649 
576.07 	0.0037316 	13483 
576.57 	0.0037316 	13649 
577.07 	0.0037316 	13649 
577.57 	0.0037316 	13649 
578.07 	0.0037316 	13649 
578.57 	0.0037316 	13649 
579.07 	0.0037316 	13483 
579.57 	0.0037316 	13483 
580.07 	0.0037316 	13649 
580.57 	0.0037316 	13649 
581.07 	0.0037316 	13649 
581.57 	0.0037316 	13649 
582.07 	0.0037316 	13483 
582.57 	0.0037316 	13649 
583.07 	0.0037316 	13649 
583.57 	0.0037316 	13649 
584.07 	0.0037316 	13649 
584.57 	0.0037316 	13649 
585.07 	0.0037316 	13649 
585.57 	0.0037316 	13649 
586.07 	0.0037316 	13649 
586.57 	0.0037316 	13649 
587.07 	0.0037316 	13483 
587.57 	0.0037316 	13649 
588.07 	0.0037316 	13483 
588.57 	0.0037316 	13649 
589.07 	0.0037316 	13816 
589.57 	0.0037316 	13649 
590.07 	0.0037316 	13649 
590.57 	0.0037316 	13649 
591.07 	0.0037316 	13649 
591.57 	0.0037316 	13649 
592.07 	0.0037316 	13649 
592.57 	0.0037316 	13649 
593.07 	0.0037316 	13649 
593.57 	0.0037316 	13816 
594.07 	0.0037316 	13649 
594.57 	0.0037316 	13649 
595.07 	0.0037316 	13649 
595.57 	0.0037316 	13649 
596.07 	0.0037316 	13649 
596.57 	0.0037316 	13816 
597.07 	0.0037316 	13649 
597.57 	0.0037316 	13649 
598.07 	0.0037316 	13649 
598.57 	0.0037316 	13649 
599.07 	0.0037316 	13649 
599.57 	0.0037316 	13816 
600.07 	0.0037316 	13649 
600.57 	0.0037316 	13816 
601.07 	0.0037316 	13649 
601.57 	0.0037316 	13483 
602.07 	0.0037316 	13649 
602.57 	0.0037316 	13649 
603.07 	0.0037316 	13816 
603.57 	0.0037316 	13649 
604.07 	0.0037316 	13649 
604.57 	0.0037316 	13649 
605.07 	0.0037316 	13649 
605.57 	0.0037316 	13649 
606.07 	0.0037316 	13649 
606.57 	0.0037316 	13649 
607.07 	0.0037316 	13649 
607.57 	0.0037316 	13649 
608.07 	0.0037316 	13649 
608.57 	0.0037316 	13816 
609.07 	0.0037316 	13649 
609.57 	0.0037316 	13649 
610.07 	0.0037316 	13649 
610.57 	0.0037316 	13649 
611.07 	0.0037316 	13649 
611.57 	0.0037316 	13649 
612.07 	0.0037316 	13649 
612.57 	0.0037316 	13649 
613.07 	0.0037316 	13649 
613.57 	0.0037316 	13649 
614.07 	0.0037316 	13649 
614.57 	0.0037316 	13483 
615.07 	0.0037316 	13649 
615.57 	0.0037316 	13649 
616.07 	0.0037316 	13649 
616.57 	0.0037316 	13649 
617.07 	0.0037316 	13483 
617.57 	0.0037316 	13649 
618.07 	0.0037316 	13649 
618.57 	0.0037316 	13649 
619.07 	0.0037316 	13649 
619.57 	0.0037316 	13649 
620.07 	0.0037316 	13483 
620.57 	0.0037316 	13649 
621.07 	0.0037316 	13649 
621.57 	0.0037316 	13649 
622.07 	0.0037316 	13649 
622.57 	0.0037316 	13649 
623.07 	0.0037316 	13649 
623.57 	0.0037316 	13649 
624.07 	0.0037316 	13649 
624.57 	0.0037316 	13649 
625.07 	0.0037316 	13649 
625.57 	0.0037316 	13649 
626.07 	0.0037316 	13649 
626.57 	0.0037316 	13649 
627.07 	0.0037316 	13982 
627.57 	0.0037316 	14482 
628.07 	0.0037316 	15148 
628.57 	0.0037316 	15647 
629.07 	0.0037316 	16146 
629.55 	0.0037316 	16812 
630.05 	0.0037316 	17145 
630.55 	0.0037316 	17644 
631.05 	0.0037316 	18144 
631.55 	0.0037316 	18643 
632.05 	0.0037316 	19309 
632.55 	0.0037316 	19642 
633.03 	0.0037316 	20308 
633.53 	0.0037316 	20641 
634.03 	0.0037316 	21140 
634.53 	0.0037316 	21473 
635.02 	0.0037316 	22139 
635.52 	0.0037316 	22638 
636.02 	0.0037316 	23137 
636.52 	0.0037316 	23637 
637.02 	0.0037316 	24303 
637.52 	0.0037316 	24636 
637.98 	0.0037316 	25301 
638.48 	0.0037316 	25634 
638.98 	0.0037316 	26134 
639.48 	0.0037316 	26633 
639.98 	0.0037316 	27132 
640.48 	0.0037316 	27465 
640.98 	0.0037316 	27798 
641.43 	0.0037316 	27132 
641.93 	0.0037316 	27465 
642.00 	0.0037316 	26800 
642.05 	0.0037316 	26134 
642.12 	0.0037316 	25301 
642.13 	0.0037316 	23304 
642.15 	0.0037316 	19642 
642.17 	0.0037316 	17644 
